Name                    FUKUSHIMA_DAIICHI-2
ReactorType             BWR
ThermalCap[MW_t]        2381
Distance[km]            349
Year    ElecSupp[GW.h]  RefUnitPow[MW]  TimeOnLine[h]   OpFac[%]    EnergAvFac-An[%]    EnergAvFac-Cu[%]    LF-An[%]    LF-Cu[%]
1973    5.950000        760             97.0            -           -                   -                   -           -
1974    3670.100        760             6474            86.60       79.40               79.4                79.4        79.4
1975    622.1000        760             982             11.20       11.20               31.4                9.30        30.0
1976    4191.400        760             6918            78.80       62.80               44.4                62.8        43.6
1977    49.70000        760             96.0            1.100       0.800               31.6                0.80        31.1
1978    3876.300        760             6538            74.60       58.20               37.6                58.2        37.2
1979    2976.000        760             4752            54.20       44.70               38.9                44.7        38.6
1980    2889.000        760             4619            52.60       43.30               39.6                43.3        39.3
1981    3841.800        760             5794            66.10       57.80               42.1                57.7        41.8
1982    5290.200        760             7531            86.00       79.40               46.5                79.5        46.3
1983    3422.700        760             4934            56.30       51.40               47.0                51.4        46.8
1984    3698.720        760             5069            57.70       56.00               47.9                55.4        47.6
1985    4266.280        760             5952            68.00       65.10               49.4                64.1        49.1
1986    5541.100        760             7478            85.40       84.30               52.2                83.2        51.8
1987    3851.080        760             5260            60.00       58.60               52.7                57.8        52.3
1988    4101.250        760             5724            65.20       62.30               53.4                61.4        52.9
1989    6516.390        760             8760            100.0       100.0               56.4                97.9        55.8
1990    3122.760        760             4385            50.10       47.60               55.8                46.9        55.3
1991    3853.050        760             5291            60.40       59.30               56.0                57.9        55.4
1992    4568.530        760             6261            71.30       69.80               56.8                68.4        56.1
1993    4186.700        760             5659            64.60       64.30               57.2                62.9        56.5
1994    2265.960        760             3138            35.80       34.70               56.1                34.0        55.4
1995    6396.470        760             8520            97.30       97.20               58.0                96.1        57.3
1996    5192.320        760             6948            79.10       78.80               58.9                77.8        58.2
1997    4618.870        760             6197            70.70       70.30               59.4                69.4        58.7
1998    3976.160        760             5352            61.10       60.60               59.4                59.7        58.7
1999    3158.380        760             4216            48.10       48.10               59.0                47.4        58.3
2000    5167.250        760             6904            78.60       78.60               59.8                77.4        59.0
2001    5996.520        760             8036            91.70       91.30               60.9                90.1        60.1
2002    5101.020        760             6815            77.80       77.80               61.5                76.6        60.7
2003    1601.110        760             2136            24.40       24.30               60.2                24.0        59.5
2004    3671.490        760             4949            56.30       55.70               60.1                55.0        59.3
2005    3424.940        760             4735            54.00       52.20               59.8                51.4        59.1
2006    3219.490        760             4447            50.80       49.10               59.5                48.4        58.7
2007    5879.860        760             7891            90.10       89.40               60.4                88.3        59.6
2008    5289.600        760             7101            80.80       80.50               61.0                79.2        60.2
2009    4903.290        760             6592            75.20       74.90               61.4                73.6        60.6
2010    4790.290        760             6493            74.10       72.00               61.7                72.0        60.9
2011    1259.170        760             1671            50.10       50.10               61.5                49.7        60.8
