Name                    FUKUSHIMA_DAIICHI-3
ReactorType             BWR
ThermalCap[MW_t]        2381
Distance[km]            349
Year    ElecSupp[GW.h]  RefUnitPow[MW]  TimeOnLine[h]   OpFac[%]    EnergAvFac-An[%]    EnergAvFac-Cu[%]    LF-An[%]    LF-Cu[%]
1974    284.7000        760             1140            -           -                   -                   -           -
1975    2961.800        760             6069            -           -                   -                   -           -
1976    4807.100        784             7641            93.90       80.70               80.7                77.6        77.6
1977    2171.100        760             3575            40.80       32.60               53.6                32.6        52.3
1978    2753.700        760             4368            49.90       41.40               49.2                41.4        48.4
1979    4916.300        760             7190            82.10       73.80               55.7                73.8        55.1
1980    4287.000        760             6110            69.60       64.20               57.5                64.2        57.0
1981    3722.800        760             5173            59.00       55.90               57.2                55.9        56.8
1982    2886.800        760             4037            46.10       42.80               55.1                43.4        54.8
1983    4034.000        760             5643            64.40       60.60               55.8                60.6        55.6
1984    4497.330        760             6041            68.80       67.70               57.2                67.4        56.9
1985    5798.640        760             7738            88.30       87.70               60.3                87.1        60.0
1986    4234.200        760             5621            64.20       63.50               60.6                63.6        60.3
1987    3748.840        760             5086            58.10       56.70               60.3                56.3        60.0
1988    5122.990        760             6822            77.70       77.00               61.6                76.7        61.3
1989    5706.690        760             7616            86.90       86.20               63.4                85.7        63.1
1990    2919.550        760             3985            45.50       44.30               62.1                43.8        61.8
1991    4491.020        760             6003            68.50       68.00               62.4                67.5        62.1
1992    6098.740        760             8120            92.40       92.00               64.2                91.4        63.9
1993    4204.300        760             5655            64.60       63.70               64.2                63.2        63.8
1994    4202.300        760             5647            64.50       63.60               64.2                63.1        63.8
1995    5966.530        760             8036            91.70       90.20               65.5                89.6        65.1
1996    4909.650        760             6525            74.30       73.90               65.9                73.5        65.5
1997    2516.650        760             3345            38.20       38.00               64.6                37.8        64.2
1998    2632.680        760             3622            41.40       42.20               63.6                39.5        63.2
1999    5116.090        760             6792            77.50       77.30               64.2                76.8        63.7
2000    5932.480        760             7859            89.50       89.40               65.2                88.9        64.8
2001    5637.320        760             7506            85.70       85.50               66.0                84.7        65.5
2002    3567.310        760             4747            54.20       54.00               65.5                53.6        65.1
2003    2483.560        760             3290            37.60       37.60               64.5                37.3        64.1
2004    3969.670        760             5225            59.50       59.50               64.4                59.5        63.9
2005    5103.850        760             6987            79.80       76.10               64.8                76.7        64.4
2006    4081.930        760             5509            62.90       61.80               64.7                61.3        64.2
2007    4312.850        760             5840            66.70       65.00               64.7                64.8        64.3
2008    6668.840        760             8784            100.0       100.0               65.8                99.9        65.4
2009    4037.600        760             5380            61.40       60.90               65.6                60.6        65.2
2010    4854.030        760             6473            73.90       73.20               65.8                72.9        65.4
2011    1271.820        760             1671            50.10       50.00               65.6                50.2        65.3
