Name                    FUKUSHIMA_DAIICHI-5
ReactorType             BWR
ThermalCap[MW_t]        2381
Distance[km]            349
Year    ElecSupp[GW.h]  RefUnitPow[MW]  TimeOnLine[h]   OpFac[%]    EnergAvFac-An[%]    EnergAvFac-Cu[%]    LF-An[%]    LF-Cu[%]
1977    875.1000        760             2040            -           -                   -                   -           -
1978    4806.700        760             7690            99.90       80.30               80.3                80.3        80.3
1979    3898.600        760             5847            66.80       58.60               67.3                58.6        67.3
1980    4282.600        760             6467            73.60       64.20               66.1                64.2        66.1
1981    4553.900        760             6616            75.50       68.40               66.7                68.4        66.7
1982    4061.300        760             5789            66.10       60.70               65.4                61.0        65.5
1983    5338.800        760             7328            83.60       80.20               68.0                80.2        68.1
1984    4691.480        760             6293            71.60       71.00               68.5                70.3        68.4
1985    4112.430        760             5547            63.30       62.10               67.6                61.8        67.6
1986    4157.360        760             5622            64.20       63.20               67.1                62.4        67.0
1987    3995.010        760             5399            61.60       60.50               66.4                60.0        66.2
1988    5952.710        760             7973            90.80       90.00               68.7                89.2        68.4
1989    4766.530        760             6401            73.10       72.20               69.0                71.6        68.7
1990    3956.550        760             5354            61.10       60.20               68.3                59.4        67.9
1991    6575.820        760             8760            100.0       100.0               70.6                98.8        70.2
1992    4841.230        760             6488            73.90       73.30               70.8                72.5        70.4
1993    4059.680        760             5448            62.20       61.70               70.2                61.0        69.8
1994    4246.210        760             5723            65.30       64.60               69.9                63.8        69.4
1995    5878.680        760             7885            90.00       89.10               70.9                88.3        70.5
1996    5666.870        760             7521            85.60       85.60               71.7                84.9        71.2
1997    4609.380        760             6139            70.10       69.80               71.6                69.2        71.1
1998    5369.910        760             7217            82.40       81.50               72.1                80.7        71.6
1999    6154.140        760             8184            93.40       93.20               73.1                92.4        72.6
2000    1647.030        760             2187            24.90       24.90               71.0                24.7        70.4
2001    5905.130        760             7869            89.80       89.60               71.7                88.7        71.2
2002    6590.490        760             8760            100.0       99.80               72.9                99.0        72.3
2003    2723.760        760             3627            41.40       41.40               71.6                40.9        71.1
2004    5471.320        760             7281            82.90       82.80               72.1                82.0        71.5
2005    2792.560        760             3781            43.20       42.40               71.0                42.0        70.5
2006    4656.900        760             6241            71.20       70.60               71.0                70.0        70.4
2007    5389.560        760             7205            82.20       81.80               71.4                81.0        70.8
2008    3930.680        760             5100            58.10       57.40               70.9                58.9        70.4
2009    5720.080        760             7282            83.10       82.80               71.3                85.9        70.9
2010    5887.980        760             7501            85.60       85.40               71.7                88.4        71.4
2011    27.32000        760             48.0            0.600       0.500               69.6                0.40        69.3
2012    0.000000        760             0.00            0.000       0.000               67.6                0.00        67.3
2013    0.000000        760             0.00            0.000       0.000               65.8                0.00        65.5
